USUBJID,STUDYID,DOMAIN,SUBJID,SITEID,AGE,SEX,RACE,ARMCD,ARM,KRASMUT,ECOGBL
RVMD-001-0001,RASOLUTE302-SIM,DM,0001,007,65,M,ASIAN,DARA,Daraxonrasib,G12V,0
RVMD-001-0002,RASOLUTE302-SIM,DM,0002,012,64,F,WHITE,DARA,Daraxonrasib,G12D,0
RVMD-001-0003,RASOLUTE302-SIM,DM,0003,002,69,F,ASIAN,DARA,Daraxonrasib,G12D,0
RVMD-001-0004,RASOLUTE302-SIM,DM,0004,007,55,F,WHITE,DARA,Daraxonrasib,G12V,0
RVMD-001-0005,RASOLUTE302-SIM,DM,0005,006,72,F,ASIAN,DARA,Daraxonrasib,G12D,0
RVMD-001-0006,RASOLUTE302-SIM,DM,0006,001,66,F,ASIAN,DARA,Daraxonrasib,G12C,0
RVMD-001-0007,RASOLUTE302-SIM,DM,0007,004,56,M,WHITE,DARA,Daraxonrasib,G12D,0
RVMD-001-0008,RASOLUTE302-SIM,DM,0008,003,68,M,ASIAN,DARA,Daraxonrasib,G12V,0
RVMD-001-0009,RASOLUTE302-SIM,DM,0009,008,57,F,WHITE,DARA,Daraxonrasib,G12D,1
RVMD-001-0010,RASOLUTE302-SIM,DM,0010,002,68,M,ASIAN,DARA,Daraxonrasib,G12V,1
RVMD-001-0011,RASOLUTE302-SIM,DM,0011,006,60,M,WHITE,DARA,Daraxonrasib,G12D,0
RVMD-001-0012,RASOLUTE302-SIM,DM,0012,009,70,F,ASIAN,DARA,Daraxonrasib,G12V,1
RVMD-001-0013,RASOLUTE302-SIM,DM,0013,004,68,M,WHITE,DARA,Daraxonrasib,G12D,0
RVMD-001-0014,RASOLUTE302-SIM,DM,0014,005,52,M,WHITE,DARA,Daraxonrasib,G12D,0
RVMD-001-0015,RASOLUTE302-SIM,DM,0015,006,68,F,ASIAN,DARA,Daraxonrasib,G12V,0
RVMD-001-0016,RASOLUTE302-SIM,DM,0016,010,57,M,WHITE,DARA,Daraxonrasib,G12V,0
RVMD-001-0017,RASOLUTE302-SIM,DM,0017,002,59,M,WHITE,DARA,Daraxonrasib,G12V,0
RVMD-001-0018,RASOLUTE302-SIM,DM,0018,005,59,F,WHITE,DARA,Daraxonrasib,G12D,0
RVMD-001-0019,RASOLUTE302-SIM,DM,0019,004,55,F,WHITE,DARA,Daraxonrasib,G12D,1
RVMD-001-0020,RASOLUTE302-SIM,DM,0020,010,68,M,WHITE,DARA,Daraxonrasib,G12D,1
RVMD-001-0021,RASOLUTE302-SIM,DM,0021,006,69,M,WHITE,DARA,Daraxonrasib,G12D,0
RVMD-001-0022,RASOLUTE302-SIM,DM,0022,011,63,F,WHITE,DARA,Daraxonrasib,G12V,1
RVMD-001-0023,RASOLUTE302-SIM,DM,0023,003,61,M,WHITE,DARA,Daraxonrasib,G12D,0
RVMD-001-0024,RASOLUTE302-SIM,DM,0024,004,65,M,WHITE,DARA,Daraxonrasib,G12D,1
RVMD-001-0025,RASOLUTE302-SIM,DM,0025,006,59,M,WHITE,DARA,Daraxonrasib,G12D,1
RVMD-001-0026,RASOLUTE302-SIM,DM,0026,006,65,M,WHITE,DARA,Daraxonrasib,G12D,1
RVMD-001-0027,RASOLUTE302-SIM,DM,0027,011,55,M,WHITE,DARA,Daraxonrasib,G12D,0
RVMD-001-0028,RASOLUTE302-SIM,DM,0028,006,61,F,BLACK OR AFRICAN AMERICAN,DARA,Daraxonrasib,G12D,1
RVMD-001-0029,RASOLUTE302-SIM,DM,0029,012,49,F,WHITE,DARA,Daraxonrasib,G12V,1
RVMD-001-0030,RASOLUTE302-SIM,DM,0030,010,70,F,WHITE,DARA,Daraxonrasib,G12D,1
RVMD-001-0031,RASOLUTE302-SIM,DM,0031,008,78,F,ASIAN,DARA,Daraxonrasib,G12D,1
RVMD-001-0032,RASOLUTE302-SIM,DM,0032,004,61,M,BLACK OR AFRICAN AMERICAN,DARA,Daraxonrasib,G12D,0
RVMD-001-0033,RASOLUTE302-SIM,DM,0033,003,53,F,BLACK OR AFRICAN AMERICAN,DARA,Daraxonrasib,G12V,1
RVMD-001-0034,RASOLUTE302-SIM,DM,0034,011,65,M,ASIAN,DARA,Daraxonrasib,G12V,0
RVMD-001-0035,RASOLUTE302-SIM,DM,0035,001,66,F,WHITE,DARA,Daraxonrasib,G12C,0
RVMD-001-0036,RASOLUTE302-SIM,DM,0036,002,76,M,WHITE,DARA,Daraxonrasib,G12D,1
RVMD-001-0037,RASOLUTE302-SIM,DM,0037,006,74,M,ASIAN,DARA,Daraxonrasib,G12C,0
RVMD-001-0038,RASOLUTE302-SIM,DM,0038,002,65,M,WHITE,DARA,Daraxonrasib,G12V,0
RVMD-001-0039,RASOLUTE302-SIM,DM,0039,001,62,F,WHITE,DARA,Daraxonrasib,G12D,1
RVMD-001-0040,RASOLUTE302-SIM,DM,0040,009,52,M,WHITE,DARA,Daraxonrasib,G12C,0
RVMD-001-0041,RASOLUTE302-SIM,DM,0041,012,60,M,WHITE,DARA,Daraxonrasib,G12C,0
RVMD-001-0042,RASOLUTE302-SIM,DM,0042,012,61,F,WHITE,DARA,Daraxonrasib,G12D,0
RVMD-001-0043,RASOLUTE302-SIM,DM,0043,006,64,F,WHITE,DARA,Daraxonrasib,G12C,1
RVMD-001-0044,RASOLUTE302-SIM,DM,0044,006,58,M,WHITE,DARA,Daraxonrasib,G12V,1
RVMD-001-0045,RASOLUTE302-SIM,DM,0045,004,45,F,WHITE,DARA,Daraxonrasib,G12C,1
RVMD-001-0046,RASOLUTE302-SIM,DM,0046,005,55,F,ASIAN,DARA,Daraxonrasib,G12D,0
RVMD-001-0047,RASOLUTE302-SIM,DM,0047,006,52,F,ASIAN,DARA,Daraxonrasib,G12D,0
RVMD-001-0048,RASOLUTE302-SIM,DM,0048,008,65,F,WHITE,DARA,Daraxonrasib,G12D,1
RVMD-001-0049,RASOLUTE302-SIM,DM,0049,009,66,M,WHITE,DARA,Daraxonrasib,G12D,0
RVMD-001-0050,RASOLUTE302-SIM,DM,0050,001,64,M,WHITE,DARA,Daraxonrasib,G12V,0
RVMD-001-0051,RASOLUTE302-SIM,DM,0051,006,65,M,ASIAN,DARA,Daraxonrasib,G12C,0
RVMD-001-0052,RASOLUTE302-SIM,DM,0052,003,78,M,WHITE,DARA,Daraxonrasib,G12D,0
RVMD-001-0053,RASOLUTE302-SIM,DM,0053,011,54,F,WHITE,DARA,Daraxonrasib,G12C,0
RVMD-001-0054,RASOLUTE302-SIM,DM,0054,011,66,F,ASIAN,DARA,Daraxonrasib,G12V,1
RVMD-001-0055,RASOLUTE302-SIM,DM,0055,011,60,M,WHITE,DARA,Daraxonrasib,G12D,1
RVMD-001-0056,RASOLUTE302-SIM,DM,0056,006,61,F,WHITE,DARA,Daraxonrasib,G12D,0
RVMD-001-0057,RASOLUTE302-SIM,DM,0057,006,65,M,WHITE,DARA,Daraxonrasib,G12D,0
RVMD-001-0058,RASOLUTE302-SIM,DM,0058,005,54,M,BLACK OR AFRICAN AMERICAN,DARA,Daraxonrasib,G12C,0
RVMD-001-0059,RASOLUTE302-SIM,DM,0059,007,72,F,ASIAN,DARA,Daraxonrasib,G12V,1
RVMD-001-0060,RASOLUTE302-SIM,DM,0060,007,63,M,WHITE,DARA,Daraxonrasib,G12D,1
RVMD-001-0061,RASOLUTE302-SIM,DM,0061,007,61,F,WHITE,DARA,Daraxonrasib,G12V,0
RVMD-001-0062,RASOLUTE302-SIM,DM,0062,012,62,F,ASIAN,DARA,Daraxonrasib,G12D,1
RVMD-001-0063,RASOLUTE302-SIM,DM,0063,007,57,F,WHITE,DARA,Daraxonrasib,G12D,0
RVMD-001-0064,RASOLUTE302-SIM,DM,0064,008,57,F,WHITE,DARA,Daraxonrasib,G12D,0
RVMD-001-0065,RASOLUTE302-SIM,DM,0065,011,63,F,WHITE,DARA,Daraxonrasib,G12D,1
RVMD-001-0066,RASOLUTE302-SIM,DM,0066,002,50,M,WHITE,DARA,Daraxonrasib,G12D,1
RVMD-001-0067,RASOLUTE302-SIM,DM,0067,010,69,M,BLACK OR AFRICAN AMERICAN,DARA,Daraxonrasib,G12V,0
RVMD-001-0068,RASOLUTE302-SIM,DM,0068,005,61,M,WHITE,DARA,Daraxonrasib,G12C,0
RVMD-001-0069,RASOLUTE302-SIM,DM,0069,008,61,F,WHITE,DARA,Daraxonrasib,G12C,1
RVMD-001-0070,RASOLUTE302-SIM,DM,0070,006,63,F,WHITE,DARA,Daraxonrasib,G12C,0
RVMD-001-0071,RASOLUTE302-SIM,DM,0071,007,78,F,WHITE,DARA,Daraxonrasib,G12D,1
RVMD-001-0072,RASOLUTE302-SIM,DM,0072,001,73,F,WHITE,DARA,Daraxonrasib,G12D,0
RVMD-001-0073,RASOLUTE302-SIM,DM,0073,001,66,F,ASIAN,DARA,Daraxonrasib,G12D,1
RVMD-001-0074,RASOLUTE302-SIM,DM,0074,011,59,F,WHITE,DARA,Daraxonrasib,G12C,1
RVMD-001-0075,RASOLUTE302-SIM,DM,0075,006,64,M,BLACK OR AFRICAN AMERICAN,DARA,Daraxonrasib,G12D,0
RVMD-001-0076,RASOLUTE302-SIM,DM,0076,002,64,M,BLACK OR AFRICAN AMERICAN,DARA,Daraxonrasib,G12V,0
RVMD-001-0077,RASOLUTE302-SIM,DM,0077,004,62,M,WHITE,DARA,Daraxonrasib,G12V,0
RVMD-001-0078,RASOLUTE302-SIM,DM,0078,011,57,F,BLACK OR AFRICAN AMERICAN,DARA,Daraxonrasib,G12V,1
RVMD-001-0079,RASOLUTE302-SIM,DM,0079,007,73,M,WHITE,DARA,Daraxonrasib,G12D,0
RVMD-001-0080,RASOLUTE302-SIM,DM,0080,009,63,F,WHITE,DARA,Daraxonrasib,G12V,0
RVMD-001-0081,RASOLUTE302-SIM,DM,0081,001,60,F,OTHER,DARA,Daraxonrasib,G12V,0
RVMD-001-0082,RASOLUTE302-SIM,DM,0082,008,66,F,WHITE,DARA,Daraxonrasib,G12D,0
RVMD-001-0083,RASOLUTE302-SIM,DM,0083,011,58,F,WHITE,DARA,Daraxonrasib,G12V,1
RVMD-001-0084,RASOLUTE302-SIM,DM,0084,007,65,F,WHITE,DARA,Daraxonrasib,G12D,1
RVMD-001-0085,RASOLUTE302-SIM,DM,0085,011,60,F,WHITE,DARA,Daraxonrasib,G12D,0
RVMD-001-0086,RASOLUTE302-SIM,DM,0086,006,78,M,WHITE,DARA,Daraxonrasib,G12D,0
RVMD-001-0087,RASOLUTE302-SIM,DM,0087,012,65,F,WHITE,DARA,Daraxonrasib,G12D,0
RVMD-001-0088,RASOLUTE302-SIM,DM,0088,008,54,M,WHITE,DARA,Daraxonrasib,G12D,0
RVMD-001-0089,RASOLUTE302-SIM,DM,0089,008,55,F,WHITE,DARA,Daraxonrasib,G12V,1
RVMD-001-0090,RASOLUTE302-SIM,DM,0090,004,60,F,WHITE,DARA,Daraxonrasib,G12V,0
RVMD-001-0091,RASOLUTE302-SIM,DM,0091,009,64,F,BLACK OR AFRICAN AMERICAN,DARA,Daraxonrasib,G12C,0
RVMD-001-0092,RASOLUTE302-SIM,DM,0092,007,56,M,ASIAN,DARA,Daraxonrasib,G12D,0
RVMD-001-0093,RASOLUTE302-SIM,DM,0093,006,68,F,WHITE,DARA,Daraxonrasib,G12D,0
RVMD-001-0094,RASOLUTE302-SIM,DM,0094,003,70,F,WHITE,DARA,Daraxonrasib,G12V,1
RVMD-001-0095,RASOLUTE302-SIM,DM,0095,007,73,M,WHITE,DARA,Daraxonrasib,G12D,0
RVMD-001-0096,RASOLUTE302-SIM,DM,0096,012,78,F,WHITE,DARA,Daraxonrasib,G12V,1
RVMD-001-0097,RASOLUTE302-SIM,DM,0097,006,60,F,WHITE,DARA,Daraxonrasib,G12D,0
RVMD-001-0098,RASOLUTE302-SIM,DM,0098,002,57,F,OTHER,DARA,Daraxonrasib,G12D,1
RVMD-001-0099,RASOLUTE302-SIM,DM,0099,011,73,M,WHITE,DARA,Daraxonrasib,G12D,0
RVMD-001-0100,RASOLUTE302-SIM,DM,0100,010,65,M,WHITE,DARA,Daraxonrasib,G12D,1
RVMD-001-0101,RASOLUTE302-SIM,DM,0101,009,66,M,WHITE,CHEMO,Chemotherapy,G12D,1
RVMD-001-0102,RASOLUTE302-SIM,DM,0102,006,56,M,ASIAN,CHEMO,Chemotherapy,G12V,1
RVMD-001-0103,RASOLUTE302-SIM,DM,0103,011,60,F,WHITE,CHEMO,Chemotherapy,G12D,0
RVMD-001-0104,RASOLUTE302-SIM,DM,0104,005,66,M,ASIAN,CHEMO,Chemotherapy,G12C,0
RVMD-001-0105,RASOLUTE302-SIM,DM,0105,011,60,F,ASIAN,CHEMO,Chemotherapy,G12D,0
RVMD-001-0106,RASOLUTE302-SIM,DM,0106,007,55,M,BLACK OR AFRICAN AMERICAN,CHEMO,Chemotherapy,G12V,0
RVMD-001-0107,RASOLUTE302-SIM,DM,0107,006,70,M,WHITE,CHEMO,Chemotherapy,G12C,0
RVMD-001-0108,RASOLUTE302-SIM,DM,0108,004,51,M,WHITE,CHEMO,Chemotherapy,G12V,1
RVMD-001-0109,RASOLUTE302-SIM,DM,0109,007,51,F,WHITE,CHEMO,Chemotherapy,G12V,1
RVMD-001-0110,RASOLUTE302-SIM,DM,0110,009,53,F,ASIAN,CHEMO,Chemotherapy,G12D,1
RVMD-001-0111,RASOLUTE302-SIM,DM,0111,002,53,F,WHITE,CHEMO,Chemotherapy,G12C,1
RVMD-001-0112,RASOLUTE302-SIM,DM,0112,004,77,F,WHITE,CHEMO,Chemotherapy,G12D,0
RVMD-001-0113,RASOLUTE302-SIM,DM,0113,003,59,M,OTHER,CHEMO,Chemotherapy,G12D,1
RVMD-001-0114,RASOLUTE302-SIM,DM,0114,005,58,M,WHITE,CHEMO,Chemotherapy,G12V,1
RVMD-001-0115,RASOLUTE302-SIM,DM,0115,012,69,M,WHITE,CHEMO,Chemotherapy,G12D,0
RVMD-001-0116,RASOLUTE302-SIM,DM,0116,009,51,F,ASIAN,CHEMO,Chemotherapy,G12V,1
RVMD-001-0117,RASOLUTE302-SIM,DM,0117,012,64,M,WHITE,CHEMO,Chemotherapy,G12C,0
RVMD-001-0118,RASOLUTE302-SIM,DM,0118,007,58,M,WHITE,CHEMO,Chemotherapy,G12C,1
RVMD-001-0119,RASOLUTE302-SIM,DM,0119,009,54,F,WHITE,CHEMO,Chemotherapy,G12C,0
RVMD-001-0120,RASOLUTE302-SIM,DM,0120,008,60,M,BLACK OR AFRICAN AMERICAN,CHEMO,Chemotherapy,G12D,0
RVMD-001-0121,RASOLUTE302-SIM,DM,0121,010,67,F,ASIAN,CHEMO,Chemotherapy,G12C,0
RVMD-001-0122,RASOLUTE302-SIM,DM,0122,005,61,F,OTHER,CHEMO,Chemotherapy,G12V,1
RVMD-001-0123,RASOLUTE302-SIM,DM,0123,001,64,F,WHITE,CHEMO,Chemotherapy,G12D,0
RVMD-001-0124,RASOLUTE302-SIM,DM,0124,001,67,M,WHITE,CHEMO,Chemotherapy,G12V,0
RVMD-001-0125,RASOLUTE302-SIM,DM,0125,005,60,F,ASIAN,CHEMO,Chemotherapy,G12D,0
RVMD-001-0126,RASOLUTE302-SIM,DM,0126,011,49,M,BLACK OR AFRICAN AMERICAN,CHEMO,Chemotherapy,G12D,1
RVMD-001-0127,RASOLUTE302-SIM,DM,0127,003,69,F,WHITE,CHEMO,Chemotherapy,G12D,0
RVMD-001-0128,RASOLUTE302-SIM,DM,0128,002,78,F,ASIAN,CHEMO,Chemotherapy,G12V,0
RVMD-001-0129,RASOLUTE302-SIM,DM,0129,004,68,F,WHITE,CHEMO,Chemotherapy,G12V,1
RVMD-001-0130,RASOLUTE302-SIM,DM,0130,010,59,F,WHITE,CHEMO,Chemotherapy,G12V,1
RVMD-001-0131,RASOLUTE302-SIM,DM,0131,004,65,M,WHITE,CHEMO,Chemotherapy,G12C,0
RVMD-001-0132,RASOLUTE302-SIM,DM,0132,001,45,M,WHITE,CHEMO,Chemotherapy,G12D,0
RVMD-001-0133,RASOLUTE302-SIM,DM,0133,006,61,M,WHITE,CHEMO,Chemotherapy,G12D,1
RVMD-001-0134,RASOLUTE302-SIM,DM,0134,003,67,M,WHITE,CHEMO,Chemotherapy,G12D,0
RVMD-001-0135,RASOLUTE302-SIM,DM,0135,005,54,M,WHITE,CHEMO,Chemotherapy,G12D,0
RVMD-001-0136,RASOLUTE302-SIM,DM,0136,006,60,F,WHITE,CHEMO,Chemotherapy,G12D,0
RVMD-001-0137,RASOLUTE302-SIM,DM,0137,006,51,F,WHITE,CHEMO,Chemotherapy,G12D,1
RVMD-001-0138,RASOLUTE302-SIM,DM,0138,001,54,F,WHITE,CHEMO,Chemotherapy,G12D,0
RVMD-001-0139,RASOLUTE302-SIM,DM,0139,009,65,M,WHITE,CHEMO,Chemotherapy,G12D,0
RVMD-001-0140,RASOLUTE302-SIM,DM,0140,008,71,F,WHITE,CHEMO,Chemotherapy,G12V,0
RVMD-001-0141,RASOLUTE302-SIM,DM,0141,004,70,F,WHITE,CHEMO,Chemotherapy,G12V,1
RVMD-001-0142,RASOLUTE302-SIM,DM,0142,004,60,M,WHITE,CHEMO,Chemotherapy,G12C,0
RVMD-001-0143,RASOLUTE302-SIM,DM,0143,007,55,M,ASIAN,CHEMO,Chemotherapy,G12V,0
RVMD-001-0144,RASOLUTE302-SIM,DM,0144,005,68,M,WHITE,CHEMO,Chemotherapy,G12D,0
RVMD-001-0145,RASOLUTE302-SIM,DM,0145,002,58,F,WHITE,CHEMO,Chemotherapy,G12V,0
RVMD-001-0146,RASOLUTE302-SIM,DM,0146,011,73,M,WHITE,CHEMO,Chemotherapy,G12V,0
RVMD-001-0147,RASOLUTE302-SIM,DM,0147,007,63,F,WHITE,CHEMO,Chemotherapy,G12D,1
RVMD-001-0148,RASOLUTE302-SIM,DM,0148,008,63,F,BLACK OR AFRICAN AMERICAN,CHEMO,Chemotherapy,G12D,1
RVMD-001-0149,RASOLUTE302-SIM,DM,0149,012,61,M,WHITE,CHEMO,Chemotherapy,G12D,1
RVMD-001-0150,RASOLUTE302-SIM,DM,0150,011,62,F,WHITE,CHEMO,Chemotherapy,G12C,0
RVMD-001-0151,RASOLUTE302-SIM,DM,0151,010,56,F,WHITE,CHEMO,Chemotherapy,G12V,1
RVMD-001-0152,RASOLUTE302-SIM,DM,0152,007,61,F,WHITE,CHEMO,Chemotherapy,G12D,0
RVMD-001-0153,RASOLUTE302-SIM,DM,0153,008,58,F,WHITE,CHEMO,Chemotherapy,G12D,1
RVMD-001-0154,RASOLUTE302-SIM,DM,0154,005,64,M,OTHER,CHEMO,Chemotherapy,G12D,0
RVMD-001-0155,RASOLUTE302-SIM,DM,0155,005,53,M,WHITE,CHEMO,Chemotherapy,G12C,0
RVMD-001-0156,RASOLUTE302-SIM,DM,0156,007,72,F,ASIAN,CHEMO,Chemotherapy,G12D,0
RVMD-001-0157,RASOLUTE302-SIM,DM,0157,006,59,F,ASIAN,CHEMO,Chemotherapy,G12D,0
RVMD-001-0158,RASOLUTE302-SIM,DM,0158,009,60,F,WHITE,CHEMO,Chemotherapy,G12V,1
RVMD-001-0159,RASOLUTE302-SIM,DM,0159,001,64,M,WHITE,CHEMO,Chemotherapy,G12D,0
RVMD-001-0160,RASOLUTE302-SIM,DM,0160,008,60,M,WHITE,CHEMO,Chemotherapy,G12D,0
RVMD-001-0161,RASOLUTE302-SIM,DM,0161,009,63,M,WHITE,CHEMO,Chemotherapy,G12D,1
RVMD-001-0162,RASOLUTE302-SIM,DM,0162,003,51,F,BLACK OR AFRICAN AMERICAN,CHEMO,Chemotherapy,G12D,0
RVMD-001-0163,RASOLUTE302-SIM,DM,0163,001,52,F,WHITE,CHEMO,Chemotherapy,G12D,0
RVMD-001-0164,RASOLUTE302-SIM,DM,0164,006,68,F,WHITE,CHEMO,Chemotherapy,G12D,0
RVMD-001-0165,RASOLUTE302-SIM,DM,0165,008,61,F,ASIAN,CHEMO,Chemotherapy,G12C,1
RVMD-001-0166,RASOLUTE302-SIM,DM,0166,012,53,M,WHITE,CHEMO,Chemotherapy,G12D,1
RVMD-001-0167,RASOLUTE302-SIM,DM,0167,001,45,F,WHITE,CHEMO,Chemotherapy,G12D,0
RVMD-001-0168,RASOLUTE302-SIM,DM,0168,004,60,F,WHITE,CHEMO,Chemotherapy,G12V,0
RVMD-001-0169,RASOLUTE302-SIM,DM,0169,008,50,M,ASIAN,CHEMO,Chemotherapy,G12V,0
RVMD-001-0170,RASOLUTE302-SIM,DM,0170,012,78,F,WHITE,CHEMO,Chemotherapy,G12D,1
RVMD-001-0171,RASOLUTE302-SIM,DM,0171,002,56,M,WHITE,CHEMO,Chemotherapy,G12D,1
RVMD-001-0172,RASOLUTE302-SIM,DM,0172,011,74,F,WHITE,CHEMO,Chemotherapy,G12D,0
RVMD-001-0173,RASOLUTE302-SIM,DM,0173,006,56,F,ASIAN,CHEMO,Chemotherapy,G12D,0
RVMD-001-0174,RASOLUTE302-SIM,DM,0174,007,66,M,WHITE,CHEMO,Chemotherapy,G12D,1
RVMD-001-0175,RASOLUTE302-SIM,DM,0175,002,72,F,WHITE,CHEMO,Chemotherapy,G12D,0
RVMD-001-0176,RASOLUTE302-SIM,DM,0176,004,70,M,BLACK OR AFRICAN AMERICAN,CHEMO,Chemotherapy,G12D,1
RVMD-001-0177,RASOLUTE302-SIM,DM,0177,002,72,M,WHITE,CHEMO,Chemotherapy,G12D,1
RVMD-001-0178,RASOLUTE302-SIM,DM,0178,010,45,M,WHITE,CHEMO,Chemotherapy,G12C,0
RVMD-001-0179,RASOLUTE302-SIM,DM,0179,008,57,M,ASIAN,CHEMO,Chemotherapy,G12V,1
RVMD-001-0180,RASOLUTE302-SIM,DM,0180,010,75,F,WHITE,CHEMO,Chemotherapy,G12V,0
RVMD-001-0181,RASOLUTE302-SIM,DM,0181,006,52,M,WHITE,CHEMO,Chemotherapy,G12D,0
RVMD-001-0182,RASOLUTE302-SIM,DM,0182,002,62,M,BLACK OR AFRICAN AMERICAN,CHEMO,Chemotherapy,G12D,1
RVMD-001-0183,RASOLUTE302-SIM,DM,0183,007,71,F,WHITE,CHEMO,Chemotherapy,G12D,1
RVMD-001-0184,RASOLUTE302-SIM,DM,0184,005,64,F,ASIAN,CHEMO,Chemotherapy,G12D,0
RVMD-001-0185,RASOLUTE302-SIM,DM,0185,003,65,F,OTHER,CHEMO,Chemotherapy,G12D,1
RVMD-001-0186,RASOLUTE302-SIM,DM,0186,004,74,M,WHITE,CHEMO,Chemotherapy,G12D,1
RVMD-001-0187,RASOLUTE302-SIM,DM,0187,005,69,M,BLACK OR AFRICAN AMERICAN,CHEMO,Chemotherapy,G12D,1
RVMD-001-0188,RASOLUTE302-SIM,DM,0188,005,59,M,WHITE,CHEMO,Chemotherapy,G12D,1
RVMD-001-0189,RASOLUTE302-SIM,DM,0189,002,60,F,WHITE,CHEMO,Chemotherapy,G12D,0
RVMD-001-0190,RASOLUTE302-SIM,DM,0190,010,49,M,WHITE,CHEMO,Chemotherapy,G12D,0
RVMD-001-0191,RASOLUTE302-SIM,DM,0191,012,60,M,WHITE,CHEMO,Chemotherapy,G12C,0
RVMD-001-0192,RASOLUTE302-SIM,DM,0192,007,46,F,WHITE,CHEMO,Chemotherapy,G12D,1
RVMD-001-0193,RASOLUTE302-SIM,DM,0193,007,71,F,WHITE,CHEMO,Chemotherapy,G12V,0
RVMD-001-0194,RASOLUTE302-SIM,DM,0194,005,62,F,WHITE,CHEMO,Chemotherapy,G12C,1
RVMD-001-0195,RASOLUTE302-SIM,DM,0195,010,55,F,WHITE,CHEMO,Chemotherapy,G12V,0
RVMD-001-0196,RASOLUTE302-SIM,DM,0196,003,58,F,ASIAN,CHEMO,Chemotherapy,G12C,1
RVMD-001-0197,RASOLUTE302-SIM,DM,0197,008,61,F,WHITE,CHEMO,Chemotherapy,G12D,0
RVMD-001-0198,RASOLUTE302-SIM,DM,0198,008,66,M,WHITE,CHEMO,Chemotherapy,G12D,0
RVMD-001-0199,RASOLUTE302-SIM,DM,0199,006,59,F,WHITE,CHEMO,Chemotherapy,G12D,0
RVMD-001-0200,RASOLUTE302-SIM,DM,0200,010,74,M,ASIAN,CHEMO,Chemotherapy,G12D,0
